Folder: Master_Thesis/MATLAB/DSC_Analysis

Note: README.md
# Masterarbeit Leon Sengün
Masterarbeit über ein aktives Latentwärmspeichersystem, mit freundlicher Unterstützung des Deutschen Zentrums für Luft-und Raumfahrt (DLR), absolviert an der Universität Stuttgart. 

## Inhaltsverzeichnis

**Ausarbeitung:** Ausarbeitung in der Druckversion (docx & pdf)

**Berechnungen:** Berechnungen zur Vorauslegung

**Daten_RD:** Rohdaten der Versuche

**Fließschema:** R&I Fließschema & Auszüge daraus

**Flowcharts:** Flussdiagramme des Versuchsablaufs

**IAPWS_IF97:** Externe Bibliothek zur Berechnung von Dampfparametern

**MATLAB:** Matlab-Files zur Versuchsauswertung & Analyse des Gesamtsystems, sowie Plots

**Präsentation:** Präsentation des Abschlussvortrags (ppt & pdf)

## Zu den Matlab-Files
Einige der Dateien erfordern Matlab R2023a oder neuer.
Zum Start der meisten Files muss vorher einmal "RD_Experiment_Analysis.m" ausgeführt werden, da hier die Versuchsdaten in den Workspace geladen werden.

File: ExpAll_2023-07-03_NaNO3KNO3_ALassII_Hanke_100-300°.csv
#EXPORTTYPE:                 ;ALL
#FILE:                       ;2023-07-03_NaNO3KNO3_ALassII_Hanke_100-300›C_10Kxmin-1_2Zyklen_N2-20-20_Al-pierced.ngb-sd7
#FORMAT:                     ;NETZSCH5
#FTYPE:                      ;ASCII
#IDENTITY:                   ;2023-07-03
#DECIMAL:                    ;COMMA
#SEPARATOR:                  ;SEMICOLON
#MTYPE:                      ;DSC
#INSTRUMENT:                 ;NETZSCH DSC 204F1 Phoenix
#PROJECT:                    ;
#DATE/TIME:                  ;03.07.2023 15:11:31 (UTC+2)
#CORR. FILE:                 ;
#TEMPCAL:                    ;26-04-2022 07:47
#SENSITIVITY:                ;26-04-2022 07:40
#LABORATORY:                 ;H221
#OPERATOR:                   ;AH
#REMARK:                     ;Teststand: ALass II / 03.07.2023 Jonas Tombrink / Probe nach Erstbe?llung / 50:50 mol% NaNO3:KNO3 / 45,7:54,3 wt% NaNO3:NO3
#SAMPLE:                     ;NaNO3KNO3
#SAMPLE MASS /mg:            ;10,719
#MATERIAL:                   ;NaNO3KNO3
#REFERENCE:                  ;-----
#REFERENCE MASS /mg:         ;0
#TYPE OF CRUCIBLE:           ;Standard Al 25 ‘l, pierced lid
#SAMPLE CRUCIBLE MASS /mg:   ;39,961
#REFERENCE CRUCIBLE MASS /mg:;39,497
#PURGE 2 MFC:                ;NITROGEN,250,0 ml/min
#PROTECTIVE MFC:             ;NITROGEN,250,0 ml/min
#M.RANGE /‘V:                ;5000
#TAU-R:                      ;---
#CORR. CODE:                 ;000
#EXO:                        ;-1
#RANGE:                      ;25›C....300›C/-10,0....10,0K/min
#SEGMENT:                    ;S1-4/4
#SEG. 1:                     ;25›C/10,0(K/min)/300›C
#SEG. 2:                     ;300›C/10,0(K/min)/25›C
#SEG. 3:                     ;25›C/10,0(K/min)/300›C
#SEG. 4:                     ;300›C/10,0(K/min)/25›C

#*RESULTS:;File;Segment;Result;Unit;Y_value;Unit;Range_Xmin;Unit;Range_Xmax;Unit;Range_Ymin;Unit;Range_Ymax;Unit

##Temp./›C;Time/min;DSC/(mW/mg);Gas Flow(purge2)/(ml/min);Gas Flow(protective)/(ml/min);Sensit./(uV/mW);Segment
 24,81900;  0,00000; 2,233418e-02;22,00000;21,00000;3,86535;1
 30,42458;  0,59833;      0,15524;22,00000;21,00000;3,85063;1
 36,46844;  1,19667;      0,16109;22,00000;21,00000;3,83454;1
 42,53240;  1,79500;      0,16295;23,00000;22,00000;3,81818;1
 48,59580;  2,39333;      0,16413;22,00000;21,00000;3,80161;1
 54,64795;  2,99167;      0,16518;22,00000;21,00000;3,78487;1
 60,69046;  3,59000;      0,16604;22,00000;21,00000;3,76796;1
 66,72343;  4,18833;      0,16723;22,00000;22,00000;3,75091;1
 72,74360;  4,78667;      0,16799;22,00000;22,00000;3,73371;1
 78,75597;  5,38500;      0,16873;22,00000;21,00000;3,71638;1
 84,76024;  5,98333;      0,16989;22,00000;22,00000;3,69892;1
 90,76261;  6,58167;      0,17076;22,00000;21,00000;3,68132;1
 96,75997;  7,18000;      0,17196;22,00000;21,00000;3,66361;1
102,75631;  7,77833;      0,17305;22,00000;22,00000;3,64577;1
108,74681;  8,37667;      0,26396;22,00000;22,00000;3,62782;1
114,73449;  8,97500;      0,72152;22,00000;22,00000;3,60978;1
120,72579;  9,57333;      0,45353;22,00000;21,00000;3,59163;1
126,71403; 10,17167;      0,25403;22,00000;21,00000;3,57339;1
132,69969; 10,77000;      0,23924;22,00000;22,00000;3,55507;1
138,68407; 11,36833;      0,24626;22,00000;21,00000;3,53668;1
144,67171; 11,96667;      0,25323;22,00000;22,00000;3,51821;1
150,65565; 12,56500;      0,26082;22,00000;21,00000;3,49968;1
156,64272; 13,16333;      0,26822;22,00000;21,00000;3,48109;1
162,62777; 13,76167;      0,27402;22,00000;22,00000;3,46245;1
168,61393; 14,36000;      0,27610;22,00000;21,00000;3,44376;1
174,59751; 14,95833;      0,27166;22,00000;22,00000;3,42504;1
180,58292; 15,55667;      0,25291;22,00000;22,00000;3,40629;1
186,56581; 16,15500;      0,21998;22,00000;21,00000;3,38751;1
192,54980; 16,75333;      0,20138;22,00000;21,00000;3,36871;1
198,53404; 17,35167;      0,19718;22,00000;21,00000;3,34989;1
204,51682; 17,95000;      0,19521;22,00000;21,00000;3,33107;1
210,50205; 18,54833;      0,19462;22,00000;22,00000;3,31223;1
216,48454; 19,14667;      0,19729;22,00000;21,00000;3,29340;1
222,46436; 19,74500;      0,76231;22,00000;22,00000;3,27459;1
228,44772; 20,34333;      2,00308;22,00000;21,00000;3,25577;1
234,43883; 20,94167;      0,20960;22,00000;21,00000;3,23693;1
240,42266; 21,54000;      0,20618;22,00000;22,00000;3,21814;1
246,40778; 22,13833;      0,20521;22,00000;21,00000;3,19936;1
252,39094; 22,73667;      0,20319;22,00000;22,00000;3,18061;1
258,37611; 23,33500;      0,20203;23,00000;22,00000;3,16188;1
264,35918; 23,93333;      0,20078;23,00000;21,00000;3,14318;1
270,34295; 24,53167;      0,19922;22,00000;22,00000;3,12452;1
276,32614; 25,13000;      0,19805;22,00000;22,00000;3,10589;1
282,30925; 25,72833;      0,19698;22,00000;21,00000;3,08730;1
288,29165; 26,32667;      0,19573;22,00000;22,00000;3,06875;1
294,27516; 26,92500;      0,19442;22,00000;21,00000;3,05024;1
300,25690; 27,52333;      0,19351;22,00000;22,00000;3,03178;2
294,81763; 28,12167;     -0,29501;22,00000;22,00000;3,04856;2
288,52625; 28,72000;     -0,29230;22,00000;21,00000;3,06802;2
282,32474; 29,31833;     -0,28804;22,00000;22,00000;3,08725;2
276,19081; 29,91667;     -0,28423;22,00000;21,00000;3,10631;2
270,10255; 30,51500;     -0,28161;22,00000;22,00000;3,12527;2
264,04519; 31,11333;     -0,27942;22,00000;21,00000;3,14416;2
258,01022; 31,71167;     -0,27695;22,00000;22,00000;3,16302;2
251,98980; 32,31000;     -0,27527;22,00000;21,00000;3,18186;2
245,97944; 32,90833;     -0,27374;22,00000;21,00000;3,20070;2
239,97940; 33,50667;     -0,27132;22,00000;22,00000;3,21953;2
233,98067; 34,10500;     -0,26974;22,00000;22,00000;3,23837;2
227,98423; 34,70333;     -0,26833;22,00000;22,00000;3,25722;2
221,99410; 35,30167;     -0,26683;22,00000;22,00000;3,27607;2
216,01931; 35,90000;     -2,72553;22,00000;22,00000;3,29487;2
210,01664; 36,49833;     -0,56327;22,00000;22,00000;3,31376;2
204,02956; 37,09667;     -0,26798;22,00000;21,00000;3,33260;2
198,04326; 37,69500;     -0,24453;22,00000;21,00000;3,35144;2
192,05678; 38,29333;     -0,23870;22,00000;22,00000;3,37026;2
186,07236; 38,89167;     -0,23515;22,00000;22,00000;3,38906;2
180,08717; 39,49000;     -0,23308;22,00000;22,00000;3,40784;2
174,10437; 40,08833;     -0,23053;22,00000;21,00000;3,42659;2
168,12049; 40,68667;     -0,22651;22,00000;21,00000;3,44530;2
162,13936; 41,28500;     -0,22356;22,00000;22,00000;3,46397;2
156,15390; 41,88333;     -0,22073;22,00000;22,00000;3,48261;2
150,16866; 42,48167;     -0,21813;22,00000;22,00000;3,50119;2
144,18464; 43,08000;     -0,21538;22,00000;22,00000;3,51971;2
138,20298; 43,67833;     -0,21226;22,00000;22,00000;3,53816;2
132,22268; 44,27667;     -0,20976;22,00000;21,00000;3,55654;2
126,23999; 44,87500;     -0,20622;22,00000;21,00000;3,57484;2
120,25551; 45,47333;     -0,20299;22,00000;22,00000;3,59306;2
114,27083; 46,07167;     -0,20071;22,00000;21,00000;3,61118;2
108,28559; 46,67000;     -0,19873;22,00000;22,00000;3,62921;2
102,30444; 47,26833;     -0,19691;22,00000;21,00000;3,64711;2
 96,31880; 47,86667;     -0,20419;22,00000;22,00000;3,66491;2
 90,33738; 48,46500;     -0,23011;22,00000;21,00000;3,68257;2
 84,35593; 49,06333;     -0,20453;22,00000;21,00000;3,70010;2
 78,37289; 49,66167;     -0,19022;22,00000;21,00000;3,71749;2
 72,38799; 50,26000;     -0,17932;22,00000;22,00000;3,73473;2
 66,40622; 50,85833;     -0,17216;22,00000;22,00000;3,75181;2
 60,42468; 51,45667;     -0,16470;22,00000;22,00000;3,76871;2
 54,43852; 52,05500;     -0,15940;22,00000;22,00000;3,78545;2
 48,45388; 52,65333;     -0,15283;22,00000;22,00000;3,80200;2
 42,47352; 53,25167;     -0,14932;22,00000;22,00000;3,81834;2
 36,49168; 53,85000;     -0,14381;22,00000;22,00000;3,83448;2
 30,50866; 54,44833;     -0,13883;22,00000;21,00000;3,85041;2
 24,68888; 55,04667;     -0,13220;22,00000;21,00000;3,86569;3
 30,66253; 55,64500;      0,17090;22,00000;21,00000;3,85000;3
 36,70575; 56,24333;      0,17837;22,00000;21,00000;3,83391;3
 42,80173; 56,84167;      0,18152;22,00000;21,00000;3,81745;3
 48,89818; 57,44000;      0,18347;22,00000;22,00000;3,80078;3
 54,98764; 58,03833;      0,18573;22,00000;22,00000;3,78392;3
 61,05588; 58,63667;      0,18737;22,00000;22,00000;3,76694;3
 67,11133; 59,23500;      0,19016;22,00000;21,00000;3,74980;3
 73,15022; 59,83333;      0,19345;22,00000;22,00000;3,73255;3
 79,17538; 60,43167;      0,19807;22,00000;21,00000;3,71517;3
 85,19318; 61,03000;      0,20567;22,00000;22,00000;3,69766;3
 91,20158; 61,62833;      0,21805;22,00000;22,00000;3,68003;3
 97,20479; 62,22667;      0,25308;22,00000;21,00000;3,66229;3
103,20664; 62,82500;      0,19872;22,00000;21,00000;3,64442;3
109,20289; 63,42333;      0,19381;22,00000;22,00000;3,62645;3
115,19340; 64,02167;      0,19206;22,00000;21,00000;3,60840;3
121,18761; 64,62000;      0,19156;22,00000;21,00000;3,59023;3
127,17787; 65,21833;      0,19060;22,00000;22,00000;3,57197;3
133,16431; 65,81667;      0,19020;22,00000;22,00000;3,55365;3
139,15237; 66,41500;      0,19033;22,00000;22,00000;3,53524;3
145,13540; 67,01333;      0,18997;22,00000;21,00000;3,51678;3
151,12043; 67,61167;      0,19036;22,00000;22,00000;3,49824;3
157,10535; 68,21000;      0,19144;22,00000;22,00000;3,47965;3
163,09205; 68,80833;      0,19238;22,00000;21,00000;3,46100;3
169,07564; 69,40667;      0,19282;22,00000;22,00000;3,44232;3
175,06141; 70,00500;      0,19471;22,00000;21,00000;3,42359;3
181,04751; 70,60333;      0,19312;22,00000;21,00000;3,40483;3
187,02916; 71,20167;      0,19179;22,00000;22,00000;3,38606;3
193,01436; 71,80000;      0,19288;22,00000;22,00000;3,36725;3
198,99656; 72,39833;      0,19322;22,00000;22,00000;3,34844;3
204,98305; 72,99667;      0,19782;23,00000;22,00000;3,32960;3
210,96782; 73,59500;      0,21857;22,00000;21,00000;3,31077;3
216,95112; 74,19333;      0,28920;22,00000;22,00000;3,29194;3
222,92571; 74,79167;      1,51122;22,00000;22,00000;3,27314;3
228,91447; 75,39000;      1,72101;22,00000;22,00000;3,25430;3
234,90570; 75,98833;      0,21291;22,00000;22,00000;3,23547;3
240,89145; 76,58667;      0,21023;22,00000;21,00000;3,21667;3
246,87637; 77,18500;      0,20910;22,00000;22,00000;3,19789;3
252,86274; 77,78333;      0,20776;22,00000;21,00000;3,17913;3
258,84542; 78,38167;      0,20694;22,00000;21,00000;3,16041;3
264,82815; 78,98000;      0,20538;22,00000;21,00000;3,14172;3
270,80881; 79,57833;      0,20353;22,00000;21,00000;3,12307;3
276,79348; 80,17667;      0,20358;22,00000;22,00000;3,10444;3
282,77671; 80,77500;      0,20194;22,00000;21,00000;3,08585;3
288,75726; 81,37333;      0,20076;22,00000;21,00000;3,06731;3
294,73894; 81,97167;      0,19836;22,00000;22,00000;3,04881;3
299,93892; 82,64167; 8,788003e-02;22,00000;22,00000;3,03276;4
287,29141; 83,83833;     -0,29587;22,00000;22,00000;3,07185;4
274,98325; 85,03500;     -0,28813;22,00000;22,00000;3,11007;4
262,85007; 86,23167;     -0,28331;22,00000;22,00000;3,14790;4
250,80339; 87,42833;     -0,27784;22,00000;22,00000;3,18558;4
238,78957; 88,62500;     -0,27552;22,00000;22,00000;3,22327;4
226,80107; 89,82167;     -0,27135;22,00000;22,00000;3,26094;4
214,83515; 91,01833;     -2,81039;22,00000;22,00000;3,29860;4
202,84566; 92,21500;     -0,26246;22,00000;22,00000;3,33633;4
190,87674; 93,41167;     -0,24195;22,00000;22,00000;3,37397;4
178,90635; 94,60833;     -0,23715;22,00000;22,00000;3,41154;4
166,93670; 95,80500;     -0,23141;22,00000;22,00000;3,44900;4
154,97223; 97,00167;     -0,22375;22,00000;21,00000;3,48628;4
143,00056; 98,19833;     -0,21910;22,00000;21,00000;3,52337;4
131,03639; 99,39500;     -0,21379;22,00000;21,00000;3,56017;4
119,07192;100,59167;     -0,20675;22,00000;21,00000;3,59665;4
107,10452;101,78833;     -0,20197;22,00000;22,00000;3,63275;4
 95,13590;102,98500;     -0,22848;22,00000;22,00000;3,66842;4
 83,17244;104,18167;     -0,20676;22,00000;22,00000;3,70355;4
 71,20503;105,37833;     -0,18562;22,00000;21,00000;3,73812;4
 59,24143;106,57500;     -0,17468;22,00000;22,00000;3,77204;4
 47,27336;107,77167;     -0,16387;22,00000;21,00000;3,80524;4
 35,30861;108,96833;     -0,15269;22,00000;21,00000;3,83765;4
 25,01100;110,00000;     -0,14366;22,00000;22,00000;3,86485;4